time_s,ax,ay,az,gx,gy,gz,mx,my,mz
0.001002,0.957195,0.584956,10.089440,0.061035,0.122070,0.000000,-4.246405,-9.325347,-73.082170
0.021748,1.009365,0.580439,9.933067,-0.061035,0.122070,-0.183105,-2.377593,-9.786535,-71.704081
0.042242,1.016169,0.618834,9.822020,-0.183105,-0.305176,-0.061035,-4.947210,-7.711190,-72.393126
0.062224,1.009365,0.634643,9.726837,-0.061035,-0.183105,-0.061035,-3.545601,-9.094753,-71.015037
0.082434,0.961732,0.591732,9.880943,0.000000,0.183105,0.061035,-3.545601,-9.555941,-72.393126
0.102557,1.016169,0.569146,9.837884,0.183105,1.037598,-0.061035,-1.443187,-9.786535,-72.622807
0.121637,0.984414,0.571405,9.776695,0.366211,1.281738,-0.122070,-0.975984,-9.325347,-72.622807
0.141545,0.959463,0.566888,9.862813,0.000000,0.183105,0.000000,-3.311999,-7.941784,-75.838348
0.160468,1.002560,0.621092,9.778961,0.000000,-0.244141,0.000000,-4.480007,-7.711190,-72.852489
0.179105,1.013901,0.578181,9.817487,0.122070,0.061035,-0.061035,-1.676788,-8.633566,-70.555674
0.198376,1.007096,0.616575,9.767630,0.122070,-0.793457,-0.122070,-2.844796,-10.247723,-72.622807
0.217826,0.991219,0.584956,9.797091,-0.183105,-1.403809,-0.122070,-1.910390,-10.708911,-71.244718
0.237169,1.016169,0.553337,9.742701,-0.671387,-2.136230,-0.122070,-1.676788,-9.094753,-71.015037
0.257572,1.009365,0.560112,9.840150,-0.183105,-0.976562,-0.122070,-4.480007,-9.094753,-72.393126
0.277164,1.045656,0.551078,9.826553,-0.122070,-0.122070,-0.244141,-3.779202,-9.786535,-71.704081
0.297135,0.964000,0.593990,9.744967,-0.488281,-0.793457,-0.061035,-2.377593,-9.325347,-71.244718
0.315828,1.022974,0.573664,9.783493,-0.122070,-0.244141,-0.061035,-3.311999,-9.325347,-73.082170
0.334838,1.032047,0.528493,9.801624,-0.122070,-0.183105,-0.061035,-3.779202,-7.941784,-72.163444
0.355567,1.013901,0.566888,9.801624,-0.122070,-0.061035,0.061035,-3.311999,-8.864160,-72.622807
0.375527,1.025242,0.584956,9.806156,-0.122070,0.183105,-0.061035,-1.443187,-9.325347,-70.785355
0.396414,1.056997,0.580439,9.794825,0.244141,1.342773,-0.061035,-3.078397,-10.478317,-72.393126
0.415820,0.986682,0.575922,9.826553,0.183105,1.342773,-0.061035,-3.779202,-9.786535,-72.622807
0.435528,0.984414,0.589473,9.794825,0.122070,0.427246,0.061035,-0.975984,-7.941784,-72.622807
0.455359,0.991219,0.551078,9.783493,0.183105,0.244141,-0.122070,-1.676788,-9.094753,-71.474400
0.475416,1.004828,0.575922,9.763097,0.061035,0.671387,-0.183105,-0.975984,-7.480596,-74.460259
0.495831,1.011633,0.605283,9.781227,-0.061035,0.122070,-0.061035,-2.143991,-9.555941,-70.555674
0.516202,1.018437,0.600766,9.806156,-0.183105,-0.732422,0.000000,-0.975984,-9.325347,-72.163444
0.536358,0.993487,0.605283,9.815221,-0.305176,-0.610352,0.061035,0.192024,-8.633566,-72.852489
0.556621,1.011633,0.553337,9.776695,0.000000,-0.488281,0.000000,-2.844796,-8.864160,-73.082170
0.576568,0.998023,0.598507,9.781227,-0.366211,-1.037598,-0.061035,-1.443187,-8.402972,-72.163444
0.596948,1.043388,0.616575,9.876411,-0.366211,-1.098633,-0.183105,-1.676788,-9.094753,-71.474400
0.616939,1.022974,0.575922,9.799357,-0.244141,-0.976562,0.000000,-1.910390,-8.864160,-71.704081
0.636883,1.020706,0.573664,9.808422,-0.488281,-1.281738,-0.122070,-2.844796,-8.402972,-71.704081
0.656773,1.013901,0.560112,9.840150,-0.488281,-1.953125,0.000000,-2.844796,-9.786535,-70.785355
0.676320,1.032047,0.564629,9.831085,-0.488281,-1.831055,-0.244141,-4.713608,-9.325347,-71.244718
0.696134,1.056997,0.591732,9.826553,-0.549316,-2.136230,0.000000,-2.844796,-10.247723,-72.622807
0.715764,1.063802,0.587215,9.849215,-0.244141,-1.281738,0.000000,-2.611194,-8.633566,-72.852489
0.735339,1.041120,0.571405,9.810689,-0.061035,-0.671387,-0.122070,-3.545601,-7.250002,-73.311852
0.755072,1.075143,0.564629,9.778961,0.000000,-0.305176,-0.061035,-2.377593,-8.402972,-70.785355
0.774943,1.032047,0.584956,9.828819,-0.366211,-0.671387,-0.183105,-1.910390,-7.019408,-71.244718
0.795214,1.029779,0.555595,9.792559,0.061035,0.488281,-0.183105,-4.012804,-7.711190,-73.311852
0.815186,1.063802,0.555595,9.758564,-0.061035,0.427246,-0.061035,-1.910390,-7.941784,-73.082170
0.835099,1.034315,0.537527,9.772162,0.061035,-0.122070,-0.061035,-3.545601,-6.788814,-71.015037
0.855033,1.013901,0.564629,9.819754,-0.488281,-1.953125,-0.305176,-0.508781,-8.864160,-73.082170
0.875177,1.036583,0.580439,9.792559,-0.793457,-2.624512,0.000000,-2.844796,-8.864160,-73.082170
0.894744,1.075143,0.553337,9.822020,-2.075195,-9.826660,0.000000,-3.545601,-7.711190,-73.311852
0.914969,1.238456,0.562371,9.851482,-0.366211,-2.685547,-0.061035,-3.078397,-8.633566,-70.555674
0.935195,1.059266,0.548820,9.763097,-0.488281,-2.868652,-0.183105,-2.844796,-9.325347,-71.704081
0.954673,1.093289,0.526235,9.835618,-1.098633,-4.699707,-0.122070,-2.377593,-8.864160,-72.622807
0.974834,1.168141,0.508166,9.862813,-0.854492,-4.333496,0.061035,-2.611194,-6.327627,-71.933763
0.995160,1.022974,0.573664,9.629387,-1.708984,-8.178711,-0.061035,-4.947210,-10.017129,-71.933763
1.014741,0.948122,0.901149,10.050913,-2.136230,-10.375977,-1.708984,-4.012804,-9.094753,-71.474400
1.035148,1.451670,0.553337,9.808422,-0.915527,-1.342773,-9.948730,-3.078397,-8.172378,-71.015037
1.054795,1.265675,0.675297,9.892274,-0.183105,2.136230,-6.835938,-4.012804,-8.172378,-71.015037
1.075057,1.270212,0.386207,9.656582,-0.122070,1.708984,-5.615234,-3.779202,-7.941784,-72.163444
1.095361,1.106899,-0.056463,9.620322,-1.037598,-4.577637,-2.258301,-5.881616,-8.633566,-71.933763
1.115742,1.231652,0.528493,9.788026,-1.342773,-6.408691,0.244141,-4.713608,-7.941784,-70.325992
1.136040,1.236188,0.521718,9.831085,-1.159668,-5.981445,-0.122070,-4.012804,-9.094753,-70.096311
1.155821,1.320113,0.496874,9.817487,-0.183105,-1.525879,-0.061035,-3.545601,-8.633566,-71.933763
1.174493,1.270212,0.519459,9.735902,0.122070,0.427246,-0.122070,-5.881616,-7.250002,-73.311852
1.193848,1.224847,0.514942,9.767630,0.366211,1.403809,-0.061035,-4.480007,-8.172378,-74.230578
1.214041,1.238456,0.501391,9.774428,0.610352,3.479004,-0.061035,-3.545601,-9.094753,-72.393126
1.233823,1.172677,0.557854,9.783493,0.732422,3.784180,-0.305176,-5.414413,-6.788814,-73.771215
1.253555,1.236188,0.537527,9.758564,0.915527,4.821777,-0.427246,-4.947210,-7.711190,-73.771215
1.273087,1.134117,0.564629,9.788026,0.854492,4.089355,-0.061035,-2.377593,-9.325347,-71.704081
1.292931,1.129581,0.499132,9.803890,0.854492,4.272461,-0.183105,-3.545601,-7.711190,-73.311852
1.313165,1.056997,0.571405,9.767630,-0.061035,0.549316,-0.122070,-3.779202,-9.325347,-73.082170
1.333591,1.236188,0.519459,9.826553,0.122070,0.976562,-0.305176,-2.844796,-7.941784,-72.163444
1.353802,1.165873,0.555595,9.819754,0.183105,1.281738,-0.244141,-2.611194,-9.094753,-71.474400
1.373585,1.122776,0.551078,9.810689,-0.061035,0.488281,-0.122070,-1.910390,-8.402972,-72.163444
1.393419,1.168141,0.514942,9.747233,-0.305176,-1.281738,-0.122070,-4.012804,-9.094753,-71.933763
1.413491,1.147727,0.512684,9.715505,-0.671387,-2.502441,0.000000,-6.582420,-8.402972,-71.244718
1.433331,1.190823,0.537527,9.785760,-0.610352,-2.990723,-0.122070,-4.480007,-9.094753,-69.636948
1.452519,1.199896,0.553337,9.810689,-0.671387,-2.746582,-0.122070,-5.180811,-11.170099,-73.082170
1.471234,1.220310,0.492357,9.874144,-0.305176,-1.281738,-0.122070,-4.480007,-8.172378,-71.933763
1.489984,1.224847,0.546561,9.849215,-0.061035,0.854492,-0.061035,-3.078397,-10.017129,-71.933763
1.509181,1.206701,0.537527,9.769896,0.122070,0.366211,-0.122070,-4.246405,-9.786535,-72.163444
1.528782,1.168141,0.526235,9.724570,-0.305176,-1.037598,0.000000,-3.311999,-9.325347,-73.082170
1.547980,1.195360,0.539786,9.767630,-0.122070,-0.305176,-0.061035,-3.779202,-9.325347,-72.163444
1.566697,1.222579,0.523976,9.862813,-0.305176,-1.220703,-0.061035,-3.779202,-9.786535,-69.866629
1.587090,1.247529,0.544303,9.878677,0.244141,1.281738,-0.183105,-4.947210,-11.400692,-71.933763
1.606028,1.236188,0.562371,9.846949,0.244141,1.403809,0.000000,-2.143991,-9.555941,-70.555674
1.625695,1.197628,0.530752,9.808422,0.366211,1.708984,-0.122070,-4.246405,-7.941784,-71.704081
1.644824,1.174946,0.553337,9.785760,0.305176,1.647949,-0.244141,-4.246405,-7.941784,-74.000896
1.663461,1.138654,0.548820,9.788026,0.000000,0.183105,-0.183105,-3.545601,-8.633566,-70.555674
1.683044,1.202164,0.535269,9.767630,0.061035,0.427246,-0.244141,-2.377593,-7.019408,-72.622807
1.702673,1.199896,0.530752,9.801624,-0.427246,-1.647949,-0.183105,-3.779202,-9.325347,-72.622807
1.723061,1.179482,0.557854,9.758564,0.244141,1.831055,-0.244141,-5.180811,-7.480596,-71.704081
1.742730,1.202164,0.514942,9.788026,0.244141,0.976562,0.000000,-4.713608,-8.864160,-71.704081
1.762230,1.120508,0.621092,9.810689,-0.183105,0.000000,-0.061035,-4.947210,-7.711190,-72.852489
1.781176,1.136386,0.571405,9.808422,-0.061035,-0.488281,-0.122070,-5.180811,-8.402972,-73.541533
1.799718,1.179482,0.553337,9.751766,-0.305176,-0.793457,-0.122070,-2.143991,-8.172378,-72.852489
1.819853,1.186287,0.519459,9.747233,-0.122070,-0.244141,-0.122070,-2.611194,-7.711190,-72.393126
1.838214,1.204433,0.505908,9.769896,-0.061035,0.244141,0.122070,-3.311999,-8.864160,-72.163444
1.857578,1.165873,0.544303,9.788026,0.122070,0.549316,0.000000,-5.414413,-5.866439,-72.393126
1.877238,1.168141,0.553337,9.769896,0.122070,0.610352,-0.122070,-4.012804,-8.172378,-71.015037
1.897273,1.190823,0.557854,9.801624,-0.061035,0.671387,-0.122070,-2.844796,-9.786535,-72.163444
1.916520,1.202164,0.503649,9.808422,0.366211,1.403809,-0.061035,-4.246405,-8.402972,-73.541533
1.935670,1.152263,0.553337,9.774428,0.061035,0.854492,0.000000,-4.012804,-8.633566,-71.474400
1.955855,1.184019,0.544303,9.760831,0.122070,-0.122070,0.000000,-5.180811,-10.708911,-70.785355
1.974981,1.195360,0.566888,9.783493,0.122070,0.305176,-0.061035,-5.180811,-10.247723,-72.622807
1.994361,1.218042,0.542044,9.808422,0.061035,0.549316,0.000000,-4.713608,-7.480596,-71.704081
2.012766,1.077412,0.528493,9.772162,0.244141,1.159668,-0.061035,-3.078397,-8.172378,-71.474400
2.031965,1.229383,0.533010,9.858280,0.061035,1.098633,-0.122070,-2.377593,-8.864160,-71.704081
2.051705,1.086484,0.551078,9.722304,0.061035,0.488281,0.061035,-4.947210,-6.788814,-73.311852
2.071216,1.206701,0.548820,9.778961,-0.183105,-0.610352,-0.061035,-4.713608,-8.402972,-71.244718
2.090794,1.131849,0.582698,9.792559,0.061035,0.305176,-0.061035,-2.844796,-9.325347,-73.541533
2.110529,1.152263,0.571405,9.799357,-0.061035,0.854492,-0.122070,-3.311999,-7.480596,-71.704081
2.129364,1.149995,0.560112,9.803890,-0.122070,-0.061035,-0.122070,-5.180811,-8.864160,-71.244718
2.149254,1.213506,0.548820,9.772162,0.183105,0.305176,-0.183105,-4.012804,-8.172378,-71.474400
2.169291,1.134117,0.510425,9.797091,-0.122070,0.122070,0.061035,-5.180811,-8.402972,-71.704081
2.188606,1.127313,0.555595,9.774428,-0.183105,-0.976562,-0.183105,-4.947210,-8.172378,-72.852489
2.207700,1.181750,0.571405,9.767630,-0.122070,-0.732422,-0.366211,-3.545601,-8.172378,-71.474400
2.226636,1.188555,0.564629,9.794825,-0.305176,-0.793457,0.183105,-3.779202,-7.941784,-73.082170
2.246337,1.136386,0.557854,9.778961,-0.305176,-0.732422,-0.061035,-3.311999,-8.864160,-72.163444
2.266146,1.197628,0.573664,9.794825,-0.671387,-2.746582,0.000000,-1.910390,-9.786535,-73.541533
2.285789,1.206701,0.510425,9.837884,-0.488281,-2.075195,0.000000,-4.947210,-8.633566,-73.311852
2.305260,1.184019,0.537527,9.808422,-0.549316,-2.014160,0.061035,-2.611194,-6.788814,-71.474400
2.324688,1.170409,0.548820,9.754032,-0.488281,-1.953125,-0.183105,-4.246405,-8.864160,-72.163444
2.343737,1.333722,0.508166,9.885476,0.061035,0.793457,-0.244141,-5.180811,-7.480596,-73.541533
2.362326,1.136386,0.564629,9.781227,-0.061035,0.366211,-0.244141,-2.611194,-8.172378,-73.311852
2.381446,1.252066,0.544303,9.819754,-0.183105,-1.220703,0.061035,-4.480007,-8.172378,-71.933763
2.400929,1.159068,0.526235,9.801624,-0.305176,-1.037598,-0.183105,-5.881616,-8.633566,-72.852489
2.419494,1.222579,0.546561,9.799357,-0.244141,-0.366211,-0.366211,-3.545601,-7.711190,-71.474400
2.438838,1.222579,0.517201,9.751766,-0.305176,-0.427246,-0.244141,-2.377593,-7.941784,-72.163444
2.458792,1.129581,0.514942,9.747233,0.061035,0.671387,-0.183105,-3.779202,-8.402972,-71.704081
2.478567,1.277016,0.553337,9.858280,-0.366211,-1.403809,0.000000,-3.078397,-9.094753,-72.393126
2.498695,1.181750,0.551078,9.731369,-0.183105,-1.342773,-0.183105,-5.648014,-8.402972,-74.000896
2.518710,1.202164,0.557854,9.765363,-0.427246,-2.197266,0.000000,-5.648014,-10.708911,-73.541533
2.538124,1.120508,0.553337,9.747233,-0.915527,-4.272461,0.000000,-5.180811,-8.402972,-71.244718
2.557270,1.272480,0.521718,9.853748,-3.234863,-15.686035,0.244141,-4.480007,-7.250002,-71.015037
2.576633,1.512913,0.510425,9.910405,-1.220703,-5.310059,-0.122070,-5.881616,-9.094753,-71.933763
2.595748,1.193092,0.521718,9.717772,-0.732422,-3.051758,0.000000,-5.180811,-7.941784,-72.163444
2.614382,1.297430,0.530752,9.742701,-2.502441,-11.352539,0.000000,-4.012804,-7.711190,-71.933763
2.633555,1.288357,0.700141,9.658849,-2.624512,-12.695312,-0.366211,-4.947210,-9.094753,-73.311852
2.652769,1.546936,1.070537,10.313801,-0.732422,-0.610352,-7.324219,-6.816022,-7.711190,-71.474400
2.671995,1.519717,0.365880,10.107570,-0.488281,-0.610352,-4.455566,-7.516827,-7.480596,-71.704081
2.691163,1.354136,1.239926,9.971594,-0.061035,-0.488281,2.136230,-4.713608,-8.402972,-72.163444
2.710121,1.215774,0.063238,9.067352,-0.122070,-1.464844,3.417969,-3.779202,-7.019408,-72.622807
2.729118,1.186287,0.225852,9.470748,-0.549316,-2.075195,-0.549316,-4.246405,-8.864160,-72.622807
2.748643,1.213506,0.846944,9.964795,0.976562,2.685547,-1.647949,-5.881616,-8.633566,-73.771215
2.768212,1.261139,0.302641,9.749499,0.366211,1.342773,-1.708984,-6.582420,-7.019408,-72.163444
2.788185,1.492499,0.734018,9.951198,-0.122070,0.976562,-0.488281,-4.947210,-8.172378,-72.852489
2.808349,1.179482,0.320710,9.153470,0.244141,-1.098633,0.427246,-3.779202,-8.864160,-73.082170
2.828131,1.558277,0.406533,10.390854,0.183105,-0.732422,-0.915527,-3.078397,-7.250002,-73.771215
2.847703,1.236188,0.932768,9.407292,0.061035,-0.610352,-1.464844,-4.246405,-9.325347,-73.541533
2.867297,1.404037,0.659487,9.509275,-0.122070,0.244141,-1.342773,-5.881616,-6.788814,-71.474400
2.886409,1.617251,0.442669,10.001055,0.061035,1.037598,-1.770020,-7.516827,-7.941784,-72.622807
2.905990,1.143190,0.056463,10.714931,-0.427246,-3.356934,-3.112793,-6.115217,-9.325347,-73.082170
2.925951,1.980169,0.695623,9.960263,-0.732422,1.281738,-0.122070,-5.414413,-9.094753,-75.608667
2.945674,1.249797,0.537527,9.053754,-0.427246,1.342773,-2.197266,-5.648014,-8.402972,-74.460259
2.965011,1.558277,0.862754,10.508700,-0.427246,1.159668,-4.272461,-5.414413,-7.250002,-74.230578
2.984520,1.658080,1.099898,9.108145,-0.549316,6.835938,-2.197266,-6.816022,-8.633566,-75.149304
3.003804,1.202164,0.616575,8.901914,-0.854492,-1.525879,-5.249023,-6.115217,-7.941784,-74.919622
3.022623,1.306503,0.182940,9.765363,-0.671387,-4.943848,-3.662109,-5.881616,-7.250002,-73.771215
3.042294,1.551473,0.431377,10.554026,0.427246,2.502441,-1.403809,-4.713608,-9.786535,-73.082170
3.061428,1.984706,0.162613,11.317759,0.366211,2.746582,-1.342773,-7.984030,-6.558221,-73.541533
3.080641,1.283821,1.005040,9.688310,-0.671387,-2.990723,-3.479004,-7.049624,-8.864160,-74.460259
3.100209,1.410842,0.548820,10.393120,0.122070,-4.150391,0.549316,-6.582420,-7.480596,-74.000896
3.120585,1.440329,-0.004517,10.037316,0.366211,1.159668,-2.319336,-6.115217,-7.941784,-74.919622
3.140467,1.288357,0.027102,9.688310,-0.122070,1.281738,-2.380371,-7.516827,-8.402972,-73.541533
3.160037,2.120800,0.404275,11.523990,-0.244141,0.549316,-1.647949,-5.414413,-7.711190,-73.771215
3.179695,1.637666,0.298124,10.751191,-0.244141,-1.464844,-2.685547,-4.713608,-7.941784,-74.460259
3.198853,1.147727,0.932768,9.169334,-0.427246,-3.967285,-3.417969,-8.684834,-7.250002,-73.771215
3.218270,1.898513,0.912441,9.957996,0.366211,4.150391,-1.525879,-6.115217,-8.864160,-75.378985
3.237514,1.642202,0.487840,9.935334,0.793457,2.685547,-0.488281,-6.582420,-10.247723,-74.460259
3.256711,1.016169,0.307158,9.731369,0.366211,1.953125,-0.427246,-6.348819,-7.711190,-75.149304
3.275510,1.286089,0.612058,9.797091,-0.061035,-2.319336,0.427246,-6.115217,-7.480596,-74.919622
3.295510,1.551473,0.968904,8.312683,0.610352,6.225586,4.028320,-9.152037,-8.633566,-74.230578
3.315066,1.338259,0.444928,9.479813,0.305176,-1.159668,0.915527,-7.049624,-8.402972,-75.838348
3.334553,1.413110,0.169389,9.849215,0.549316,-0.122070,1.892090,-7.283225,-7.711190,-76.068030
3.353191,1.435793,0.783706,10.141564,0.610352,1.403809,2.929688,-6.582420,-7.480596,-74.919622
3.372403,1.236188,0.264247,9.910405,1.281738,3.906250,3.540039,-6.115217,-8.402972,-75.378985
3.390472,1.199896,0.858237,9.541002,0.427246,1.708984,-1.953125,-6.582420,-8.402972,-75.378985
3.410260,1.669421,0.286832,10.141564,1.464844,6.225586,-2.746582,-5.881616,-9.094753,-75.149304
3.429492,1.086484,0.562371,9.463949,0.793457,2.990723,-0.732422,-7.516827,-7.941784,-75.838348
3.448677,1.311040,0.386207,9.778961,-0.488281,-1.831055,-0.244141,-9.385639,-8.402972,-77.675800
3.467382,1.483426,0.501391,9.808422,-0.915527,-6.225586,1.098633,-7.516827,-6.558221,-76.757074
3.486228,1.419915,0.659487,9.776695,-0.549316,-3.662109,2.136230,-7.516827,-7.480596,-76.297711
3.505489,1.381355,0.584956,9.606724,-0.427246,-0.793457,-1.403809,-6.816022,-8.633566,-76.527393
3.524516,1.170409,0.413309,9.899073,-0.366211,1.586914,-1.953125,-7.750428,-8.633566,-76.068030
3.543429,1.408574,0.578181,9.554600,-1.281738,-3.295898,-1.037598,-7.283225,-7.711190,-77.905482
3.562970,1.565082,0.241661,10.760256,1.098633,3.356934,-1.159668,-8.451233,-8.864160,-76.297711
3.582345,1.755614,0.973421,10.037316,-0.183105,-1.159668,-0.793457,-8.451233,-8.402972,-75.378985
3.601910,1.218042,0.824359,8.491719,-0.122070,-2.563477,1.831055,-7.516827,-7.019408,-76.297711
3.620814,1.937073,0.542044,10.506434,0.427246,5.371094,-2.624512,-7.984030,-7.019408,-78.135163
3.641096,0.966268,0.876305,8.727411,-0.732422,-0.976562,-3.356934,-8.918436,-7.480596,-77.675800
3.661534,1.549204,0.225852,10.021452,0.366211,-1.647949,-0.366211,-9.619240,-7.711190,-77.905482
3.681408,1.172677,0.237144,10.082641,0.793457,-3.845215,1.220703,-8.684834,-6.327627,-78.364845
3.700584,2.138945,0.957612,8.743275,-0.122070,2.197266,2.258301,-8.451233,-6.097033,-77.216437
3.719754,2.345355,0.004517,10.592552,1.037598,4.638672,-2.502441,-8.217631,-6.788814,-76.527393
3.738202,1.825929,0.501391,10.093973,1.098633,-0.244141,-0.488281,-11.254451,-6.558221,-79.513252
3.757417,1.354136,0.241661,10.307002,-0.122070,-3.601074,0.610352,-9.385639,-7.480596,-77.216437
3.776520,1.290626,0.745311,10.723996,-0.122070,-0.061035,-3.967285,-11.488053,-9.555941,-79.283571
3.795434,0.787077,0.185198,9.400494,1.037598,5.859375,1.037598,-9.385639,-6.558221,-79.972615
3.814330,0.664593,0.593990,9.180665,-0.793457,-1.403809,-2.014160,-8.684834,-6.788814,-80.202297
3.833857,1.022974,1.016333,9.130807,-0.122070,9.460449,0.549316,-11.955256,-6.327627,-78.824208
3.854297,1.918927,0.652712,10.762523,-0.427246,-4.821777,-0.915527,-11.721654,-8.864160,-78.594526
3.874019,1.195360,0.537527,9.953464,-0.366211,-3.784180,-1.464844,-12.656060,-6.558221,-79.513252
3.893872,0.920903,1.104415,7.884358,0.305176,6.286621,-1.342773,-10.320045,-7.019408,-81.810067
3.913256,0.782541,0.277798,9.785760,-0.061035,-3.051758,-3.540039,-11.488053,-7.250002,-79.742934
3.933223,0.909562,0.560112,9.980659,0.427246,-0.061035,2.197266,-11.721654,-6.558221,-81.810067
3.953373,0.816565,1.075054,8.389737,0.549316,-3.967285,2.258301,-12.188857,-7.019408,-81.350704
3.973444,1.295162,0.352329,8.808997,-1.281738,-5.371094,-1.220703,-11.955256,-7.250002,-81.580385
3.993105,1.701176,0.130994,9.384630,0.610352,-0.366211,-3.845215,-11.721654,-6.558221,-81.350704
4.012905,0.635106,1.027626,8.786334,-0.549316,6.042480,-5.065918,-13.590466,-6.097033,-82.728793
4.032795,1.692103,0.370397,9.516073,0.000000,-0.305176,-3.479004,-13.590466,-7.941784,-82.728793
4.052507,1.349600,0.275539,9.534204,0.366211,0.427246,-2.136230,-14.992076,-4.713469,-82.269430
4.072574,1.669421,0.948577,8.233364,-0.976562,-2.624512,-4.211426,-14.524873,-7.019408,-84.106882
4.092121,1.465280,0.858237,9.720038,-0.732422,-2.929688,0.061035,-12.188857,-6.558221,-85.025608
4.111135,1.245261,1.133776,8.648091,-0.976562,1.770020,-2.685547,-12.889662,-7.250002,-85.714652
4.130521,1.027510,0.862754,9.740434,-2.746582,-10.314941,-0.793457,-12.889662,-6.327627,-85.255289
4.149918,0.594278,0.496874,8.629961,-0.183105,-6.164551,0.366211,-13.824068,-8.633566,-86.174015
4.170024,1.095557,0.261988,8.584636,1.281738,5.187988,3.479004,-14.992076,-5.635845,-86.403697
4.190029,1.923463,0.702399,11.562516,0.671387,-0.549316,1.098633,-14.057670,-5.174657,-86.403697
4.209567,1.875830,0.772413,10.633345,0.000000,-0.305176,-0.366211,-13.590466,-5.635845,-87.781786
4.228919,1.669421,0.047429,9.588594,2.136230,5.859375,2.868652,-14.291271,-6.788814,-87.552104
4.248715,1.444866,0.530752,9.701908,0.000000,-0.305176,0.183105,-14.057670,-7.480596,-85.484971
4.268127,0.077120,0.205525,8.978967,-0.671387,-1.892090,-2.990723,-16.627286,-7.250002,-87.092741
4.286732,0.517158,-0.295866,9.488878,-1.403809,-6.103516,-2.868652,-14.992076,-7.019408,-89.159875
4.307176,1.059266,0.679814,10.173292,-0.610352,-9.460449,-5.981445,-16.160083,-5.405251,-88.470830
4.327082,1.091021,1.291872,7.721186,0.427246,-2.441406,-2.624512,-15.926482,-7.480596,-90.078601
4.346924,2.556301,-0.210042,12.299055,0.915527,5.187988,-4.455566,-16.160083,-6.788814,-90.308282
4.366735,0.709958,0.451704,9.212393,-0.976562,-6.591797,-1.220703,-17.094489,-8.172378,-91.686371
4.386283,1.102362,0.560112,10.084908,0.122070,-8.972168,4.272461,-16.860888,-8.402972,-93.294142
4.405465,3.449985,0.661746,12.142682,-0.549316,12.451172,3.417969,-17.094489,-8.172378,-93.064460
4.424853,1.247529,0.530752,9.237322,-0.549316,-2.075195,0.549316,-17.561693,-10.478317,-94.442549
4.444881,1.154532,0.686589,9.282647,-1.708984,-0.305176,0.366211,-17.094489,-10.017129,-93.983186
4.465005,1.002560,-0.027102,10.098505,0.488281,-3.723145,1.037598,-18.496099,-8.633566,-95.820638
4.484520,0.964000,0.483323,9.427689,-0.183105,-0.854492,-1.342773,-18.496099,-9.555941,-96.280001
4.503709,2.182042,1.032143,10.361393,-0.244141,4.638672,-2.563477,-19.430505,-9.555941,-93.983186
4.522457,1.553741,0.273281,9.695109,0.732422,-3.784180,1.708984,-19.196903,-9.325347,-96.509682
4.541806,1.891708,0.112926,9.933067,0.061035,-1.831055,7.324219,-17.561693,-11.400692,-95.361275
4.561323,1.456207,0.347812,10.223150,0.854492,-3.234863,4.943848,-18.963302,-11.400692,-96.280001
4.580474,0.390136,0.539786,8.872452,-0.305176,1.403809,-2.990723,-19.196903,-10.247723,-98.347134
4.599200,1.664884,0.146804,10.522298,0.000000,0.732422,0.488281,-18.496099,-11.861880,-101.792357
4.618194,0.741713,0.560112,9.244121,-0.793457,-7.751465,2.014160,-18.028896,-15.090195,-99.954905
4.637292,1.088753,0.794998,8.865654,0.244141,-1.159668,2.990723,-20.364911,-14.629007,-99.036179
4.656847,1.531059,0.189715,10.311535,-0.427246,1.037598,3.051758,-21.065716,-14.859601,-100.643949
4.676874,0.521694,0.232627,9.337038,-0.915527,-4.150391,-0.183105,-22.000122,-14.398413,-99.725223
4.697364,1.649007,0.313934,9.556866,0.000000,-2.319336,-0.183105,-21.766520,-15.090195,-100.873631
4.717304,1.043388,0.381690,9.942132,-0.244141,-0.732422,-1.159668,-21.532919,-14.859601,-99.725223
4.737680,1.220310,0.476547,9.928535,-1.037598,-2.197266,-1.770020,-20.598513,-14.859601,-101.562675
4.757618,1.068339,0.494615,8.491719,-0.061035,0.854492,-2.624512,-19.664106,-14.398413,-102.481401
4.777494,1.742004,0.632385,9.946665,-0.122070,3.662109,-2.685547,-19.897708,-14.167819,-101.792357
4.796779,1.020706,0.528493,9.162535,-0.427246,-1.220703,-3.295898,-20.131309,-15.320789,-102.940764
4.815765,1.236188,0.481064,9.273582,-0.122070,1.647949,-3.662109,-18.262497,-14.398413,-102.940764
4.832837,1.494767,0.151321,10.148363,-0.244141,-1.831055,-2.563477,-22.000122,-15.320789,-102.940764
4.853098,1.399501,0.722726,9.606724,0.000000,0.915527,-2.868652,-19.664106,-17.165540,-102.940764
4.873396,1.578691,0.406533,9.545535,-0.366211,0.183105,-3.112793,-20.131309,-16.243164,-102.022038
4.893144,1.320113,-0.024844,9.454884,0.061035,2.197266,-0.976562,-20.131309,-16.704352,-102.940764
4.912881,1.358673,0.180681,9.846949,-0.122070,-0.549316,-1.708984,-19.664106,-16.243164,-101.562675
4.932878,1.392696,0.261988,9.742701,-0.183105,-0.244141,-0.549316,-20.131309,-15.320789,-103.400127
4.952204,1.356404,0.508166,9.747233,-0.061035,0.122070,0.061035,-20.364911,-16.934946,-103.170446
4.971243,1.383623,0.517201,9.774428,0.183105,-0.061035,-0.183105,-20.364911,-16.012571,-102.251720
4.989922,1.370014,0.510425,9.783493,-0.183105,0.061035,-0.183105,-21.532919,-16.704352,-103.400127
5.014785,1.388160,0.514942,9.749499,-0.061035,0.183105,-0.122070,-19.664106,-17.165540,-102.022038
5.034287,1.333722,0.521718,9.783493,0.183105,0.122070,-0.183105,-21.299317,-17.857322,-102.711083
5.053598,1.376819,0.523976,9.774428,-0.122070,0.122070,-0.061035,-21.299317,-17.396134,-102.251720
5.073269,1.392696,0.523976,9.758564,-0.122070,0.183105,-0.366211,-19.897708,-16.012571,-104.548535
5.092895,1.360941,0.544303,9.797091,0.061035,0.183105,-0.122070,-19.664106,-17.626728,-103.859490
5.112395,1.385892,0.539786,9.767630,0.061035,0.061035,0.000000,-20.598513,-14.859601,-102.481401
5.131575,1.354136,0.487840,9.776695,-0.122070,0.061035,-0.183105,-18.963302,-15.551383,-103.629809
5.151781,1.374550,0.537527,9.790292,-0.061035,0.122070,-0.183105,-19.196903,-16.704352,-102.022038
5.170228,1.415379,0.487840,9.799357,0.366211,1.647949,-0.122070,-18.963302,-17.857322,-103.170446
5.189696,1.333722,0.542044,9.767630,0.244141,1.037598,-0.122070,-17.094489,-16.473758,-102.711083
5.209278,1.324649,0.519459,9.722304,0.244141,0.976562,0.122070,-20.832114,-17.857322,-101.792357
5.228907,1.358673,0.535269,9.831085,0.061035,0.305176,-0.183105,-21.065716,-15.781977,-102.022038
5.248455,1.335990,0.512684,9.751766,0.122070,0.366211,-0.244141,-20.364911,-17.396134,-102.251720
5.267635,1.372282,0.526235,9.778961,-0.183105,-0.488281,-0.061035,-20.364911,-17.857322,-103.629809
5.287202,1.292894,0.510425,9.742701,-0.305176,-1.159668,0.000000,-20.131309,-16.243164,-102.481401
5.307161,1.367746,0.496874,9.767630,-0.244141,-0.549316,-0.122070,-21.299317,-16.473758,-104.089172
5.327107,1.419915,0.537527,9.853748,-0.183105,-0.244141,-0.122070,-19.897708,-18.318510,-103.170446
5.346231,1.301967,0.544303,9.790292,0.244141,1.342773,-0.122070,-19.897708,-16.473758,-104.089172
5.364904,1.363209,0.542044,9.763097,0.366211,1.525879,0.061035,-19.430505,-17.396134,-103.629809
5.384758,1.306503,0.517201,9.713239,-0.122070,0.244141,-0.122070,-20.364911,-16.012571,-102.251720
5.404315,1.335990,0.539786,9.826553,-0.122070,0.549316,-0.061035,-19.196903,-17.626728,-102.940764
5.424470,1.363209,0.494615,9.758564,0.122070,0.671387,-0.122070,-20.131309,-17.626728,-102.022038
5.443281,1.363209,0.521718,9.794825,-0.244141,-0.610352,-0.183105,-19.897708,-16.012571,-102.251720
5.463165,1.311040,0.514942,9.767630,-0.366211,-1.342773,-0.122070,-19.897708,-17.857322,-103.170446
5.482423,1.351868,0.505908,9.749499,-0.610352,-1.892090,-0.183105,-19.430505,-16.934946,-103.629809
5.501945,1.392696,0.537527,9.794825,-0.427246,-1.647949,-0.061035,-18.496099,-16.012571,-103.170446
5.522063,1.313308,0.526235,9.772162,-0.061035,-0.061035,0.000000,-19.664106,-17.165540,-102.022038
5.542264,1.354136,0.526235,9.783493,-0.122070,0.061035,-0.061035,-22.000122,-16.704352,-102.940764
5.562014,1.335990,0.544303,9.765363,-0.183105,0.122070,-0.183105,-19.196903,-17.626728,-102.940764
5.582296,1.381355,0.553337,9.763097,0.000000,0.122070,0.122070,-19.196903,-17.165540,-102.022038
5.602225,1.358673,0.526235,9.740434,-0.061035,0.122070,0.000000,-21.065716,-18.087916,-102.481401
5.622024,1.438061,0.544303,9.810689,0.122070,0.793457,-0.061035,-20.598513,-15.781977,-104.778216
5.641922,1.311040,0.517201,9.797091,0.488281,1.525879,-0.183105,-19.664106,-16.243164,-103.400127
5.661810,1.370014,0.514942,9.808422,0.427246,2.075195,-0.244141,-18.729700,-16.704352,-104.318853
5.681397,1.354136,0.553337,9.740434,0.366211,2.136230,-0.305176,-17.561693,-17.857322,-102.251720
5.700059,1.345063,0.530752,9.799357,0.305176,1.342773,-0.061035,-20.131309,-18.087916,-101.562675
5.717458,1.317844,0.519459,9.742701,0.122070,1.281738,-0.122070,-19.897708,-15.090195,-103.170446
5.737048,1.347332,0.494615,9.724570,-0.183105,-0.549316,0.000000,-21.065716,-16.704352,-102.481401
5.756764,1.354136,0.548820,9.783493,-0.183105,-0.732422,-0.122070,-18.262497,-14.859601,-102.940764
5.776088,1.358673,0.514942,9.778961,-0.122070,-0.549316,-0.183105,-19.664106,-15.320789,-101.562675
5.795526,1.351868,0.523976,9.774428,-0.122070,-0.732422,-0.061035,-20.832114,-17.396134,-103.170446
5.815547,1.354136,0.539786,9.783493,-0.122070,-1.098633,-0.122070,-19.430505,-18.318510,-103.170446
5.835922,1.335990,0.542044,9.726837,-0.183105,-1.281738,-0.061035,-18.496099,-17.857322,-102.711083
5.855830,1.358673,0.508166,9.783493,-0.183105,-0.610352,0.000000,-19.430505,-15.090195,-101.792357
5.874934,1.374550,0.537527,9.808422,0.000000,0.244141,-0.061035,-20.598513,-17.165540,-102.022038
5.894396,1.304235,0.514942,9.729103,0.183105,0.732422,-0.244141,-21.532919,-18.087916,-102.940764
5.913802,1.404037,0.494615,9.794825,0.122070,0.183105,-0.305176,-20.131309,-18.087916,-102.481401
5.933255,1.394964,0.526235,9.822020,0.183105,1.953125,-0.305176,-19.430505,-17.396134,-103.629809
5.952857,1.335990,0.519459,9.733635,0.366211,2.258301,-0.305176,-19.430505,-16.934946,-103.629809
5.972436,1.365477,0.521718,9.751766,0.549316,2.807617,0.000000,-18.729700,-17.165540,-102.022038
5.991171,1.322381,0.528493,9.751766,0.244141,1.892090,-0.122070,-18.262497,-15.320789,-104.318853
6.010121,1.301967,0.584956,9.769896,0.000000,0.854492,-0.183105,-19.196903,-16.243164,-102.940764
6.029065,1.329186,0.580439,9.744967,-0.244141,-0.671387,0.000000,-19.664106,-16.243164,-101.103312
6.048557,1.313308,0.537527,9.778961,-0.305176,-1.220703,0.000000,-20.598513,-18.087916,-100.643949
6.066885,1.392696,0.557854,9.740434,0.122070,0.366211,0.061035,-20.598513,-16.243164,-103.400127
6.087685,1.317844,0.503649,9.754032,0.061035,0.061035,-0.061035,-19.897708,-15.551383,-104.089172
6.107743,1.297430,0.584956,9.735902,0.244141,0.671387,-0.183105,-20.832114,-16.934946,-104.089172
6.127687,1.340527,0.496874,9.760831,0.061035,0.488281,-0.183105,-19.664106,-17.626728,-102.940764
6.147063,1.313308,0.548820,9.837884,0.061035,0.244141,-0.244141,-19.196903,-16.243164,-102.940764
6.166671,1.286089,0.503649,9.797091,0.122070,0.183105,-0.061035,-17.561693,-17.396134,-103.629809
6.186532,1.315576,0.535269,9.790292,-0.305176,-0.427246,-0.305176,-20.364911,-16.473758,-103.170446
6.205980,1.286089,0.551078,9.788026,-0.366211,-1.281738,-0.061035,-18.963302,-17.396134,-100.414268
6.225884,1.301967,0.530752,9.724570,-0.305176,-1.342773,-0.122070,-20.364911,-17.396134,-102.251720
6.245958,1.351868,0.544303,9.776695,-0.122070,-0.671387,0.122070,-20.131309,-16.243164,-104.318853
6.265845,1.331454,0.510425,9.756298,0.244141,0.488281,-0.244141,-19.897708,-16.473758,-102.251720
6.285697,1.376819,0.564629,9.812955,0.244141,0.915527,-0.061035,-19.664106,-17.165540,-103.400127
6.305071,1.320113,0.519459,9.803890,0.183105,0.793457,-0.122070,-20.598513,-16.243164,-103.400127
6.324895,1.277016,0.530752,9.747233,0.122070,1.098633,-0.122070,-21.532919,-16.704352,-102.940764
6.344967,1.306503,0.544303,9.801624,-0.122070,0.305176,0.061035,-19.897708,-16.473758,-102.711083
6.364852,1.322381,0.512684,9.799357,-0.122070,-0.610352,-0.183105,-20.364911,-16.934946,-102.711083
6.384799,1.322381,0.553337,9.831085,0.122070,1.159668,-0.183105,-20.832114,-17.857322,-101.792357
6.404425,1.351868,0.514942,9.885476,0.183105,1.403809,-0.061035,-19.430505,-15.551383,-102.711083
6.423933,1.299699,0.533010,9.790292,0.244141,1.281738,-0.244141,-17.795294,-16.243164,-104.778216
6.442984,1.279284,0.546561,9.776695,0.183105,1.159668,-0.183105,-20.832114,-16.934946,-104.089172
6.462253,1.272480,0.551078,9.783493,0.061035,0.122070,-0.244141,-19.196903,-16.704352,-104.318853
6.481278,1.274748,0.578181,9.806156,-0.061035,-0.610352,-0.122070,-19.664106,-16.704352,-101.103312
6.500528,1.297430,0.521718,9.729103,-0.305176,-0.671387,-0.122070,-18.028896,-17.396134,-102.711083
6.519366,1.279284,0.526235,9.708706,0.122070,0.427246,-0.122070,-19.430505,-16.473758,-103.629809
6.539396,1.299699,0.505908,9.756298,-0.183105,-0.122070,-0.061035,-20.364911,-16.934946,-102.711083
6.558728,1.315576,0.521718,9.826553,0.000000,0.061035,0.061035,-19.430505,-17.857322,-102.711083
6.579158,1.326917,0.526235,9.772162,0.183105,0.366211,-0.183105,-19.430505,-17.396134,-104.089172
6.599068,1.345063,0.546561,9.744967,0.061035,0.427246,-0.183105,-20.832114,-16.012571,-103.170446
6.619415,1.335990,0.535269,9.778961,-0.183105,-1.281738,-0.061035,-19.430505,-16.934946,-100.873631
6.639244,1.290626,0.537527,9.763097,-0.305176,-1.647949,0.000000,-18.262497,-17.626728,-104.318853
6.658941,1.322381,0.533010,9.797091,-0.305176,-1.037598,-0.122070,-18.729700,-16.243164,-103.400127
6.678759,1.333722,0.514942,9.767630,-0.183105,-0.244141,-0.122070,-18.496099,-14.629007,-103.170446
6.698165,1.290626,0.539786,9.699641,-0.061035,-0.305176,0.061035,-19.196903,-18.087916,-102.481401
6.717355,1.315576,0.530752,9.774428,0.122070,0.305176,-0.183105,-19.897708,-18.318510,-103.170446
6.736548,1.356404,0.505908,9.769896,-0.122070,-0.427246,0.000000,-18.963302,-16.934946,-101.792357
6.755124,1.299699,0.490098,9.747233,-0.183105,-0.671387,0.061035,-20.131309,-16.243164,-103.859490
6.774477,1.363209,0.557854,9.776695,-0.061035,-0.793457,-0.122070,-21.065716,-16.243164,-102.022038
6.793693,1.267943,0.530752,9.720038,-0.244141,-1.037598,-0.122070,-19.430505,-16.473758,-101.792357
6.812547,1.322381,0.539786,9.785760,-0.122070,-0.366211,-0.244141,-20.364911,-15.551383,-103.170446
6.831409,1.347332,0.514942,9.776695,-0.183105,-0.854492,-0.122070,-18.963302,-16.934946,-103.170446
6.850528,1.322381,0.521718,9.744967,-0.061035,-0.122070,-0.183105,-17.328091,-15.781977,-102.940764
6.868576,1.372282,0.492357,9.774428,0.122070,0.976562,-0.061035,-20.131309,-17.626728,-103.859490
6.887893,1.356404,0.521718,9.806156,0.305176,1.037598,-0.244141,-19.897708,-18.318510,-101.332994
6.906518,1.295162,0.526235,9.778961,0.122070,0.915527,-0.183105,-20.832114,-18.779697,-103.629809
6.926081,1.292894,0.555595,9.801624,-0.122070,-0.122070,-0.061035,-20.131309,-16.704352,-102.481401
6.945205,1.322381,0.519459,9.778961,-0.183105,-0.305176,-0.061035,-18.963302,-17.396134,-103.170446
6.964527,1.376819,0.537527,9.810689,0.061035,0.366211,-0.244141,-20.598513,-17.626728,-103.859490
6.983406,1.313308,0.530752,9.760831,0.244141,1.281738,-0.122070,-17.094489,-16.934946,-101.332994
7.003083,1.313308,0.526235,9.817487,0.305176,1.586914,-0.244141,-19.196903,-15.781977,-103.859490
7.022111,1.315576,0.519459,9.772162,0.366211,1.770020,-0.061035,-20.832114,-17.396134,-104.089172
7.039966,1.317844,0.537527,9.794825,0.366211,1.281738,-0.061035,-19.664106,-16.243164,-102.022038
7.059202,1.311040,0.508166,9.769896,0.305176,1.525879,-0.183105,-21.532919,-16.243164,-102.022038
7.079099,1.308772,0.528493,9.790292,0.427246,2.136230,0.000000,-20.131309,-17.165540,-102.481401
7.099413,1.320113,0.548820,9.808422,-0.122070,0.244141,-0.122070,-17.795294,-16.243164,-101.562675
7.118667,1.256602,0.501391,9.783493,0.244141,0.488281,0.122070,-17.795294,-13.937225,-103.859490
7.138513,1.297430,0.537527,9.767630,0.366211,0.915527,0.000000,-19.664106,-16.704352,-102.940764
7.158357,1.292894,0.519459,9.799357,0.000000,0.244141,-0.061035,-18.496099,-16.934946,-101.332994
7.177852,1.290626,0.539786,9.681511,-0.244141,-0.366211,0.000000,-19.430505,-17.396134,-104.089172
7.197811,1.329186,0.562371,9.853748,0.061035,0.610352,-0.183105,-18.496099,-16.473758,-103.170446
7.218089,1.270212,0.557854,9.778961,0.549316,1.525879,-0.061035,-18.963302,-17.396134,-104.089172
7.237968,1.236188,0.575922,9.810689,0.427246,1.953125,-0.061035,-17.561693,-17.857322,-101.792357
7.258095,1.267943,0.526235,9.724570,-0.122070,-0.122070,-0.183105,-19.196903,-16.243164,-101.562675
7.278082,1.163604,0.519459,9.681511,-0.122070,-0.671387,-0.122070,-18.963302,-16.473758,-103.170446
7.298195,1.370014,0.512684,9.819754,-0.305176,-0.854492,-0.122070,-19.664106,-17.165540,-102.481401
7.318145,1.258870,0.512684,9.835618,-0.366211,-1.770020,-0.183105,-19.196903,-15.781977,-103.400127
7.337283,1.340527,0.519459,9.853748,0.000000,0.732422,-0.305176,-20.131309,-18.549103,-102.022038
7.356797,1.308772,0.560112,9.783493,0.122070,1.037598,-0.061035,-21.299317,-19.240885,-102.251720
7.376600,1.265675,0.605283,9.767630,0.244141,1.220703,-0.244141,-20.598513,-18.549103,-102.940764
7.395805,1.286089,0.517201,9.783493,0.061035,1.220703,-0.183105,-19.664106,-16.704352,-101.562675
7.415750,1.231652,0.578181,9.740434,-0.183105,-0.488281,0.061035,-19.430505,-16.473758,-101.792357
7.435068,1.224847,0.517201,9.747233,-0.183105,-1.037598,-0.122070,-19.664106,-16.704352,-102.940764
7.454230,1.356404,0.512684,9.883209,-0.427246,-1.403809,-0.183105,-18.028896,-18.318510,-101.792357
7.473213,1.358673,0.503649,9.819754,0.244141,0.854492,-0.244141,-19.897708,-17.857322,-104.089172
7.493289,1.385892,0.526235,9.874144,1.525879,6.896973,-0.122070,-17.094489,-19.240885,-102.711083
7.512597,1.535595,0.485581,9.930801,4.455566,21.972656,-0.122070,-17.094489,-17.396134,-104.089172
7.531693,0.900489,0.250695,9.645251,2.624512,11.291504,5.065918,-18.729700,-17.165540,-102.940764
7.551387,1.072875,0.189715,9.765363,1.281738,4.516602,1.281738,-17.328091,-18.087916,-102.022038
7.570468,0.943586,0.650453,9.697375,-0.122070,-2.502441,0.244141,-18.262497,-17.626728,-102.022038
7.589466,1.077412,0.158096,9.697375,-2.502441,-11.108398,0.976562,-20.598513,-16.243164,-101.562675
7.608623,1.199896,2.416614,10.089440,-2.746582,-12.268066,0.427246,-19.664106,-14.859601,-101.562675
7.628520,1.354136,-0.140028,9.942132,0.061035,1.647949,-0.549316,-16.860888,-16.704352,-103.400127
7.647329,0.841515,0.187457,9.488878,-3.417969,-15.380859,-1.159668,-19.196903,-13.937225,-102.022038
7.666106,1.630861,0.397499,10.071310,-2.380371,-13.977051,-0.122070,-17.561693,-14.629007,-101.332994
7.685513,1.392696,0.313934,9.507008,-1.220703,-3.112793,0.305176,-19.430505,-15.551383,-101.792357
7.704781,1.438061,0.329744,9.960263,-0.305176,-0.305176,-0.244141,-18.028896,-16.012571,-99.954905
7.724348,1.299699,0.539786,9.688310,-0.122070,-1.342773,1.159668,-20.131309,-14.398413,-100.184586
7.743401,1.533327,0.372655,9.840150,0.061035,-3.784180,3.112793,-17.561693,-14.167819,-101.792357
7.762732,1.004828,0.424601,9.778961,-1.831055,-8.728027,-0.244141,-18.963302,-13.245444,-100.414268
7.782069,1.326917,0.564629,10.352328,0.732422,3.845215,-0.549316,-19.897708,-13.245444,-100.873631
7.802042,1.891708,0.277798,9.996523,0.732422,4.699707,0.915527,-19.664106,-13.476038,-99.725223
7.822163,1.140922,-0.083565,9.799357,0.366211,0.122070,1.770020,-17.328091,-13.476038,-99.725223
7.842130,1.345063,0.528493,9.631653,-0.549316,-4.333496,2.563477,-21.065716,-12.553662,-98.347134
7.861231,1.174946,0.752086,9.831085,-0.488281,-2.807617,0.976562,-18.496099,-10.017129,-99.954905
7.881007,1.485694,0.169389,10.166493,0.793457,1.831055,3.540039,-19.196903,-12.553662,-97.428408
7.900780,1.229383,0.754345,9.538736,0.000000,-3.723145,2.746582,-18.496099,-12.784256,-96.739364
7.920904,1.447134,0.390724,9.565931,-0.366211,-0.183105,0.488281,-18.028896,-10.017129,-96.739364
7.940942,1.916658,0.081307,11.408410,1.098633,3.234863,5.004883,-17.561693,-12.323068,-97.198727
7.960875,0.657788,0.605283,9.119476,0.000000,2.624512,1.586914,-19.196903,-10.708911,-96.969045
7.980804,1.560546,0.422343,9.606724,-0.366211,-1.403809,0.366211,-19.897708,-10.017129,-96.280001
8.000645,1.351868,0.666263,9.937600,-0.366211,1.464844,1.708984,-19.430505,-9.555941,-96.280001
8.020515,1.424451,0.216818,10.039582,0.915527,4.577637,0.671387,-18.262497,-9.325347,-95.590957
8.039897,0.973073,0.693365,9.869612,0.427246,6.469727,0.854492,-17.795294,-9.325347,-95.131594
8.059953,1.215774,0.271022,10.010121,-0.793457,-3.784180,2.441406,-17.795294,-10.247723,-95.590957
8.079718,1.297430,0.654970,9.740434,-1.525879,-7.507324,1.586914,-18.729700,-9.786535,-95.131594
8.099908,1.653543,0.485581,10.171026,1.708984,4.821777,3.173828,-15.926482,-9.325347,-94.212868
8.118662,1.442597,0.246178,9.400494,0.793457,1.342773,4.760742,-15.926482,-7.941784,-93.294142
8.138127,1.222579,-0.054204,9.842416,-0.244141,3.173828,-1.342773,-14.992076,-6.558221,-92.834779
8.157691,1.009365,1.077313,10.164227,0.976562,-3.356934,2.929688,-17.094489,-8.633566,-93.064460
8.176522,1.603642,0.533010,9.960263,0.793457,4.760742,3.662109,-17.795294,-9.325347,-92.834779
8.195249,1.254334,0.560112,9.688310,-0.183105,3.967285,0.793457,-17.094489,-6.788814,-91.227008
8.214651,1.342795,0.359104,10.236748,1.708984,4.760742,-2.258301,-15.692880,-6.327627,-90.767645
8.234296,1.252066,0.661746,9.774428,-0.061035,-3.295898,-1.037598,-15.926482,-7.019408,-89.619238
8.253866,1.286089,0.953095,10.361393,-0.366211,-1.037598,-1.525879,-14.524873,-7.480596,-90.537964
8.272817,1.297430,0.271022,9.812955,-0.793457,-2.624512,1.220703,-14.291271,-7.711190,-90.308282
8.292769,1.229383,0.155838,9.622588,-1.220703,-6.469727,0.915527,-13.356865,-7.250002,-89.848919
8.312394,1.174946,0.849203,9.744967,-2.197266,-6.469727,-1.037598,-15.225677,-7.711190,-88.470830
8.332132,1.490230,0.345553,10.318333,2.319336,7.263184,-2.380371,-15.692880,-7.711190,-87.092741
8.351885,1.413110,1.077313,9.579529,-1.342773,-5.859375,5.920410,-16.160083,-4.944063,-89.389556
8.370282,1.510644,0.368138,10.019186,-0.854492,-3.662109,3.051758,-16.160083,-7.250002,-87.552104
8.389312,1.156800,0.517201,10.041848,-0.976562,-4.760742,1.220703,-15.225677,-5.866439,-87.092741
8.408721,1.077412,0.481064,9.797091,0.183105,0.122070,-0.061035,-14.057670,-7.019408,-85.025608
8.428392,0.893685,0.056463,10.284339,0.732422,7.141113,-1.037598,-15.459279,-6.558221,-84.566245
8.447319,1.283821,0.842427,9.459417,1.159668,-1.464844,3.051758,-11.254451,-6.097033,-86.403697
8.466034,1.335990,0.334261,9.656582,-0.305176,-1.403809,0.610352,-13.824068,-7.711190,-85.255289
8.485307,1.208969,0.402016,9.092281,0.061035,6.713867,-3.173828,-13.824068,-6.327627,-84.795926
8.505317,1.322381,0.404275,9.899073,0.305176,2.258301,-0.366211,-14.291271,-7.250002,-83.417837
8.524430,1.592301,0.794998,10.343262,0.244141,-2.319336,-1.037598,-13.356865,-6.327627,-84.336563
8.543446,1.578691,-0.072273,8.820328,-0.305176,3.601074,1.586914,-10.787248,-7.019408,-84.106882
8.562336,0.836979,0.575922,9.507008,0.061035,-3.112793,-0.549316,-11.020850,-6.327627,-81.121022
8.581930,0.662325,0.828876,9.862813,0.671387,-3.967285,2.014160,-13.824068,-7.250002,-82.958474
8.600851,1.458475,0.185198,8.598234,0.671387,10.375977,1.892090,-12.188857,-7.480596,-81.810067
8.621069,1.558277,0.691106,10.148363,-0.122070,1.647949,-1.403809,-13.123263,-7.941784,-80.431978
8.641481,1.379087,-0.153579,9.840150,-0.183105,5.126953,-0.183105,-10.553647,-6.327627,-83.417837
8.661355,1.231652,0.544303,9.393695,-2.014160,-12.512207,5.004883,-11.955256,-7.250002,-81.121022
8.681610,1.839538,0.494615,11.091132,0.610352,0.732422,0.549316,-12.422459,-8.633566,-79.742934
8.701528,1.338259,0.664004,9.225991,1.037598,3.540039,0.305176,-9.852842,-7.941784,-79.053889
8.720577,1.465280,0.916958,9.400494,-0.061035,1.586914,-1.159668,-9.385639,-7.480596,-80.431978
8.739500,1.170409,0.501391,9.713239,0.305176,2.624512,0.732422,-10.787248,-7.480596,-78.594526
8.759046,1.324649,0.548820,10.012387,-0.244141,-2.319336,-0.488281,-12.422459,-7.711190,-78.364845
8.779289,2.213797,1.088606,11.254304,-0.183105,-0.061035,3.845215,-11.488053,-6.788814,-77.446119
8.798237,1.601374,0.060980,11.014079,1.159668,4.760742,-3.845215,-10.553647,-9.094753,-80.202297
8.816801,1.419915,0.264247,9.348369,-0.915527,-4.333496,1.037598,-8.918436,-6.558221,-78.594526
8.836687,1.131849,0.849203,9.794825,2.075195,2.563477,0.305176,-9.852842,-8.402972,-77.216437
8.856299,1.535595,0.684331,8.906446,-2.502441,-1.892090,0.976562,-10.320045,-6.558221,-78.135163
8.875832,1.331454,0.302641,9.822020,0.427246,4.699707,0.610352,-10.320045,-9.325347,-74.460259
8.894459,1.469816,0.794998,9.858280,1.098633,4.150391,2.929688,-7.516827,-8.402972,-77.216437
8.913982,1.168141,0.307158,10.166493,1.464844,0.427246,2.258301,-7.750428,-8.172378,-76.986756
8.933645,1.308772,0.336519,9.860547,1.525879,6.774902,1.098633,-6.582420,-6.558221,-75.838348
8.953059,1.227115,0.792740,9.534204,-0.427246,-3.967285,3.417969,-10.086443,-9.555941,-76.527393
8.973115,1.787369,0.494615,9.982925,1.831055,12.145996,0.488281,-8.918436,-7.019408,-77.216437
8.992934,1.338259,0.505908,9.937600,2.258301,12.878418,0.122070,-7.984030,-7.480596,-74.460259
9.012727,0.959463,0.487840,9.785760,1.586914,3.784180,1.586914,-6.582420,-7.480596,-76.297711
9.032323,0.864197,0.417826,10.064511,1.708984,0.854492,2.990723,-6.348819,-8.172378,-77.905482
9.051939,1.190823,1.558377,10.687736,-3.356934,-4.272461,-3.540039,-7.984030,-7.941784,-74.919622
9.071235,1.283821,0.027102,9.373298,0.732422,3.051758,3.845215,-5.180811,-9.325347,-75.838348
9.090233,1.342795,0.648195,9.901340,-0.305176,-0.732422,0.671387,-6.115217,-7.019408,-76.297711
9.109248,1.304235,0.191974,9.713239,-0.854492,-2.624512,0.976562,-6.115217,-8.402972,-76.297711
9.128767,1.177214,0.695623,10.025984,-1.159668,-6.896973,-3.662109,-6.115217,-9.325347,-76.297711
9.147831,1.072875,0.420084,9.473014,-1.831055,-8.422852,-3.967285,-8.684834,-8.172378,-75.608667
9.166481,1.308772,0.289090,10.173292,-1.159668,-9.582520,2.685547,-6.348819,-9.555941,-76.527393
9.185872,1.075143,0.749828,10.114369,0.000000,-3.295898,2.868652,-6.816022,-7.250002,-73.771215
9.205819,1.506108,0.435894,9.692843,-1.708984,-5.859375,-1.037598,-7.750428,-8.172378,-73.771215
9.225901,1.487962,0.874046,9.939866,0.488281,2.624512,-0.793457,-6.348819,-7.711190,-73.311852
9.246184,1.283821,0.447187,9.865079,0.976562,0.244141,1.464844,-6.115217,-7.941784,-75.838348
9.265838,1.229383,0.955353,9.228257,-1.403809,-4.943848,0.915527,-4.246405,-10.247723,-74.460259
9.285681,1.374550,0.727243,10.066777,-0.915527,-7.080078,2.929688,-6.816022,-8.633566,-74.230578
9.305153,1.027510,0.614317,9.604458,-0.061035,1.953125,3.051758,-6.115217,-9.786535,-74.460259
9.324577,1.367746,0.885339,9.731369,-0.671387,-1.953125,0.122070,-7.283225,-6.788814,-74.689941
9.343708,1.687567,0.720467,10.071310,0.854492,6.347656,-1.098633,-5.414413,-9.094753,-71.933763
9.362237,1.301967,0.711433,9.595393,1.342773,4.760742,0.915527,-7.049624,-9.325347,-72.163444
9.381755,1.542400,0.232627,9.645251,1.342773,3.845215,4.455566,-5.180811,-7.480596,-72.622807
9.401399,1.120508,0.745311,9.880943,1.403809,4.211426,-2.624512,-5.414413,-10.478317,-74.689941
9.421031,1.399501,0.666263,9.686044,1.647949,7.019043,0.183105,-5.414413,-10.939505,-72.852489
9.440694,1.277016,0.941802,9.756298,0.305176,1.281738,-0.427246,-5.648014,-9.325347,-72.622807
9.460066,1.370014,0.953095,9.840150,1.281738,6.896973,-1.281738,-5.414413,-10.478317,-72.393126
9.479636,1.036583,0.797257,9.588594,-0.183105,-1.831055,0.915527,-3.779202,-8.864160,-72.163444
9.499707,1.335990,0.950836,9.856014,-1.159668,-6.469727,0.854492,-6.582420,-7.941784,-73.082170
9.519314,1.308772,0.975680,9.726837,-0.793457,-3.479004,0.183105,-4.480007,-8.633566,-73.311852
9.538372,1.351868,0.503649,9.758564,-0.610352,-2.929688,0.122070,-4.480007,-7.250002,-74.230578
9.557849,1.360941,0.517201,9.772162,-0.610352,-1.708984,-0.061035,-5.881616,-8.172378,-71.474400
9.576934,1.345063,0.519459,9.774428,-0.244141,0.122070,-0.244141,-5.414413,-8.633566,-71.474400
9.596837,1.349600,0.537527,9.781227,0.244141,0.732422,0.061035,-4.713608,-9.325347,-72.163444
9.616386,1.274748,0.544303,9.751766,-0.061035,-0.183105,0.061035,-6.115217,-9.786535,-73.541533
9.635920,1.236188,0.551078,9.758564,-0.854492,-3.906250,0.000000,-5.180811,-7.941784,-73.082170
9.655483,1.270212,0.501391,9.763097,-1.708984,-8.117676,-0.183105,-5.881616,-9.555941,-73.311852
9.675957,0.918635,0.557854,10.028251,-0.183105,0.732422,-0.305176,-4.480007,-7.711190,-74.230578
9.695726,1.358673,0.492357,9.733635,-0.244141,-0.061035,0.000000,-4.713608,-8.402972,-73.541533
9.715600,1.345063,0.562371,9.833351,0.000000,0.000000,-0.122070,-5.414413,-7.711190,-72.393126
9.735618,1.345063,0.490098,9.758564,0.000000,0.122070,0.000000,-3.779202,-7.480596,-74.000896
9.755236,1.385892,0.523976,9.788026,-0.122070,0.305176,-0.183105,-5.414413,-9.094753,-71.015037
9.774225,1.376819,0.533010,9.763097,-0.183105,0.000000,-0.305176,-5.648014,-8.402972,-73.541533
9.793563,1.354136,0.514942,9.842416,-0.244141,0.122070,-0.061035,-4.246405,-8.402972,-73.541533
9.813520,1.367746,0.517201,9.808422,0.000000,0.000000,-0.122070,-5.414413,-9.555941,-71.474400
9.832576,1.365477,0.510425,9.772162,0.061035,-0.061035,-0.061035,-6.348819,-8.172378,-71.933763
9.851778,1.406306,0.492357,9.758564,-0.122070,-0.061035,-0.061035,-6.582420,-8.864160,-72.622807
9.870246,1.370014,0.508166,9.776695,0.000000,-0.244141,-0.183105,-4.947210,-7.711190,-74.230578
9.889476,1.370014,0.519459,9.738168,-0.061035,-0.122070,-0.061035,-5.648014,-8.864160,-73.082170
9.908738,1.335990,0.539786,9.758564,-0.061035,0.000000,-0.305176,-4.713608,-9.786535,-73.082170
9.927774,1.363209,0.512684,9.837884,-0.122070,0.000000,-0.183105,-4.947210,-9.555941,-73.771215
9.946687,1.370014,0.476547,9.740434,-0.061035,0.061035,-0.122070,-6.115217,-7.941784,-73.082170
9.967071,1.354136,0.537527,9.792559,0.061035,0.244141,0.000000,-5.648014,-8.402972,-73.082170
9.986173,1.401769,0.526235,9.740434,-0.061035,0.305176,-0.061035,-6.348819,-7.711190,-72.852489
10.005156,1.335990,0.501391,9.767630,-0.122070,0.061035,0.000000,-7.049624,-7.019408,-73.082170
10.028785,1.349600,0.521718,9.760831,0.061035,0.061035,-0.183105,-4.246405,-7.019408,-74.460259
10.047973,1.365477,0.483323,9.792559,-0.122070,-0.061035,-0.488281,-4.713608,-8.402972,-72.622807
10.067152,1.349600,0.533010,9.778961,0.122070,0.000000,-0.061035,-4.947210,-8.172378,-72.852489
10.086366,1.345063,0.499132,9.758564,-0.122070,-0.122070,-0.183105,-4.947210,-8.172378,-71.474400
10.105331,1.345063,0.510425,9.749499,0.061035,-0.061035,-0.122070,-7.049624,-6.558221,-72.622807
10.124909,1.370014,0.496874,9.788026,0.061035,-0.183105,-0.183105,-6.115217,-6.097033,-73.082170
10.144212,1.360941,0.546561,9.744967,0.122070,0.061035,-0.122070,-4.947210,-9.555941,-71.474400
10.163232,1.363209,0.517201,9.747233,-0.061035,0.000000,-0.183105,-7.516827,-7.941784,-72.622807
10.182381,1.376819,0.512684,9.778961,0.000000,0.061035,0.000000,-5.881616,-8.633566,-71.933763
10.202165,1.390428,0.526235,9.783493,0.061035,-0.061035,-0.061035,-7.984030,-9.325347,-72.163444
10.222056,1.372282,0.505908,9.722304,-0.183105,-0.061035,-0.183105,-5.648014,-8.864160,-72.622807
10.242158,1.370014,0.517201,9.851482,0.061035,-0.183105,-0.122070,-5.881616,-10.017129,-73.311852
10.261954,1.360941,0.535269,9.769896,0.122070,0.000000,-0.183105,-6.348819,-9.555941,-73.311852
10.281638,1.354136,0.530752,9.765363,0.122070,0.122070,0.061035,-5.414413,-9.094753,-71.015037
10.300431,1.365477,0.523976,9.729103,-0.061035,0.122070,-0.122070,-3.545601,-7.711190,-72.393126
10.319877,1.342795,0.535269,9.794825,0.427246,2.868652,-0.183105,-5.414413,-7.711190,-73.771215
10.339351,1.379087,0.499132,9.808422,-0.488281,-1.037598,-0.061035,-5.648014,-9.325347,-74.000896
10.358510,1.340527,0.523976,9.715505,0.000000,0.671387,0.061035,-4.480007,-6.788814,-71.474400
10.376885,1.360941,0.499132,9.815221,-0.122070,-0.427246,-0.061035,-4.012804,-9.094753,-70.555674
10.397175,1.340527,0.528493,9.803890,0.183105,1.403809,-0.244141,-4.480007,-8.633566,-72.852489
10.417031,1.417647,0.530752,9.846949,0.671387,3.662109,-0.366211,-6.816022,-9.094753,-71.474400
10.436634,1.340527,0.499132,9.794825,1.220703,6.774902,-0.244141,-6.582420,-8.864160,-72.622807
10.456014,1.608179,0.456221,9.996523,2.075195,10.559082,-0.305176,-6.816022,-6.788814,-71.933763
10.474431,1.056997,0.607541,9.656582,1.403809,7.019043,-0.305176,-4.012804,-9.094753,-72.852489
10.494070,1.213506,0.578181,9.740434,0.000000,0.488281,-0.122070,-4.947210,-9.555941,-73.311852
10.513620,1.218042,0.528493,9.720038,-0.549316,-2.502441,0.000000,-5.180811,-9.325347,-74.000896
10.533097,1.311040,0.494615,9.772162,-0.427246,-2.136230,-0.122070,-4.480007,-9.094753,-72.852489
10.552523,1.256602,0.483323,9.749499,-0.305176,-1.770020,0.000000,-6.348819,-8.633566,-73.771215
10.571208,1.301967,0.544303,9.751766,-0.183105,-1.037598,-0.122070,-5.180811,-9.786535,-72.163444
10.591343,1.272480,0.505908,9.731369,-0.427246,-1.708984,-0.061035,-6.115217,-8.402972,-73.082170
10.610434,1.270212,0.521718,9.799357,-0.549316,-2.929688,0.061035,-7.283225,-10.017129,-74.689941
10.629970,1.331454,0.490098,9.756298,-0.732422,-2.929688,-0.183105,-5.180811,-7.941784,-72.622807
10.650116,1.324649,0.487840,9.744967,-1.037598,-5.371094,0.061035,-4.947210,-9.094753,-75.608667
10.669848,1.331454,0.528493,9.767630,-0.671387,-3.601074,-0.122070,-7.283225,-8.633566,-72.393126
10.689106,1.358673,0.521718,9.822020,-0.427246,-3.051758,-0.183105,-4.947210,-6.327627,-72.393126
10.709454,1.426720,0.510425,9.810689,-0.366211,-1.403809,-0.061035,-4.947210,-8.172378,-70.096311
10.729477,1.374550,0.523976,9.790292,0.305176,2.075195,0.000000,-6.816022,-7.250002,-73.311852
10.749154,1.374550,0.492357,9.740434,0.488281,2.441406,-0.061035,-4.480007,-9.555941,-73.311852
10.768934,1.290626,0.499132,9.688310,0.305176,1.770020,-0.244141,-5.881616,-10.017129,-72.393126
10.788794,1.345063,0.514942,9.826553,-0.122070,-1.342773,0.000000,-4.713608,-9.325347,-71.244718
10.808510,1.333722,0.553337,9.717772,0.000000,-0.122070,-0.183105,-4.713608,-7.480596,-71.244718
10.828278,1.372282,0.542044,9.769896,0.061035,0.610352,-0.183105,-5.414413,-7.711190,-74.689941
10.847877,1.379087,0.512684,9.790292,0.488281,2.563477,0.061035,-5.180811,-9.325347,-74.460259
10.866880,1.306503,0.519459,9.720038,0.244141,1.892090,-0.122070,-7.283225,-8.633566,-73.311852
10.886666,1.299699,0.553337,9.822020,0.122070,1.281738,-0.244141,-5.881616,-8.633566,-73.771215
10.906543,1.290626,0.539786,9.742701,-0.061035,-0.732422,0.000000,-4.246405,-8.864160,-74.000896
10.926420,1.345063,0.539786,9.717772,-0.366211,-1.892090,0.000000,-3.779202,-8.402972,-73.082170
10.945062,1.283821,0.478806,9.738168,-0.427246,-1.403809,0.061035,-4.012804,-9.094753,-73.311852
10.964856,1.333722,0.512684,9.772162,-0.244141,-0.915527,0.000000,-4.947210,-8.633566,-73.311852
10.984878,1.354136,0.533010,9.751766,-0.244141,-1.037598,-0.061035,-5.414413,-7.250002,-72.852489
11.003039,1.335990,0.517201,9.785760,-0.061035,-0.183105,-0.122070,-4.246405,-7.941784,-72.622807
11.023084,1.356404,0.512684,9.797091,0.122070,0.366211,-0.061035,-4.012804,-7.250002,-72.852489
11.042850,1.338259,0.496874,9.717772,-0.244141,-0.793457,-0.061035,-5.180811,-10.247723,-72.163444
11.062819,1.292894,0.521718,9.760831,-0.366211,-1.831055,0.061035,-5.414413,-8.172378,-72.393126
11.082751,1.370014,0.490098,9.822020,-0.244141,-1.403809,0.000000,-5.414413,-8.172378,-72.393126
11.102759,1.392696,0.523976,9.808422,-0.122070,-0.610352,0.000000,-4.947210,-6.327627,-73.771215
11.122630,1.354136,0.483323,9.767630,0.061035,0.488281,-0.305176,-5.648014,-8.402972,-72.163444
11.142754,1.315576,0.551078,9.731369,0.305176,0.854492,-0.122070,-6.582420,-7.941784,-74.919622
11.163016,1.376819,0.523976,9.785760,0.061035,0.976562,-0.244141,-7.049624,-7.941784,-72.622807
11.183236,1.335990,0.508166,9.817487,0.183105,1.586914,-0.183105,-5.648014,-5.635845,-72.622807
11.202701,1.322381,0.496874,9.735902,0.366211,0.915527,-0.061035,-6.582420,-8.402972,-73.082170
11.222510,1.340527,0.542044,9.792559,0.122070,1.403809,-0.061035,-4.713608,-8.402972,-73.541533
11.242440,1.351868,0.528493,9.740434,0.366211,0.854492,-0.244141,-5.648014,-8.402972,-73.082170
11.262523,1.317844,0.512684,9.822020,0.061035,0.244141,-0.122070,-4.713608,-8.864160,-74.000896
11.282074,1.326917,0.553337,9.715505,0.061035,0.183105,-0.122070,-4.012804,-7.711190,-74.689941
11.302027,1.349600,0.510425,9.754032,0.183105,0.671387,0.061035,-5.414413,-8.633566,-72.393126
11.321962,1.283821,0.546561,9.765363,-0.427246,-0.976562,-0.244141,-5.180811,-7.941784,-71.244718
11.341706,1.320113,0.523976,9.740434,-0.549316,-2.258301,-0.061035,-4.480007,-7.711190,-72.852489
11.361866,1.358673,0.503649,9.735902,-0.793457,-3.540039,-0.122070,-6.816022,-9.094753,-72.852489
11.381845,1.356404,0.490098,9.754032,-0.610352,-2.990723,-0.061035,-6.115217,-8.864160,-72.622807
11.400918,1.379087,0.501391,9.767630,-0.061035,-0.671387,-0.122070,-8.217631,-7.250002,-70.096311
11.420594,1.408574,0.494615,9.754032,-0.061035,0.488281,-0.122070,-5.414413,-8.172378,-72.393126
11.440054,1.415379,0.490098,9.756298,0.244141,1.403809,-0.183105,-7.049624,-7.480596,-72.163444
11.459896,1.340527,0.517201,9.778961,0.366211,2.441406,0.061035,-6.348819,-8.633566,-72.852489
11.479810,1.315576,0.523976,9.695109,0.244141,1.464844,-0.244141,-6.115217,-7.480596,-74.000896
11.499326,1.267943,0.523976,9.801624,-0.305176,-0.244141,-0.122070,-5.881616,-6.327627,-72.393126
11.519031,1.340527,0.505908,9.799357,-0.366211,-1.403809,0.000000,-6.115217,-8.402972,-74.919622
11.539261,1.354136,0.499132,9.776695,-0.305176,-1.159668,-0.305176,-4.947210,-10.017129,-72.393126
11.559087,1.356404,0.487840,9.735902,-0.244141,-1.281738,0.061035,-7.283225,-7.711190,-72.852489
11.578462,1.363209,0.508166,9.772162,-0.183105,-0.732422,-0.122070,-4.480007,-9.094753,-73.311852
11.598024,1.372282,0.544303,9.792559,-0.122070,-0.366211,-0.061035,-7.516827,-7.480596,-72.622807
11.617633,1.406306,0.521718,9.767630,0.244141,0.000000,-0.122070,-3.545601,-9.555941,-72.852489
11.637145,1.356404,0.521718,9.747233,0.244141,0.732422,-0.061035,-5.180811,-7.480596,-71.704081
11.657124,1.374550,0.496874,9.769896,-0.122070,0.244141,-0.244141,-5.180811,-8.402972,-73.082170
11.677469,1.365477,0.505908,9.799357,-0.183105,-0.793457,-0.183105,-3.779202,-7.480596,-74.000896
11.697400,1.338259,0.503649,9.792559,-0.183105,-0.732422,-0.061035,-5.648014,-9.325347,-72.622807
11.717617,1.313308,0.546561,9.788026,-0.183105,-0.183105,0.000000,-5.648014,-9.325347,-73.541533
11.737545,1.381355,0.505908,9.733635,-0.122070,0.000000,-0.122070,-4.246405,-8.402972,-72.163444
11.757288,1.370014,0.523976,9.792559,0.183105,0.305176,-0.061035,-6.348819,-9.094753,-71.474400
11.777246,1.345063,0.519459,9.756298,0.183105,1.403809,0.000000,-5.648014,-8.864160,-73.541533
11.797671,1.351868,0.569146,9.747233,0.061035,0.610352,-0.061035,-5.180811,-9.786535,-72.163444
11.817860,1.338259,0.539786,9.749499,-0.122070,0.061035,-0.244141,-5.414413,-8.633566,-72.393126
11.837359,1.367746,0.503649,9.776695,-0.305176,-0.488281,-0.061035,-6.115217,-7.941784,-72.163444
11.857411,1.351868,0.503649,9.772162,-0.488281,-2.197266,0.061035,-3.545601,-6.788814,-72.393126
11.877548,1.313308,0.499132,9.901340,-0.122070,0.244141,-0.183105,-6.115217,-7.480596,-72.622807
11.897600,1.351868,0.478806,9.744967,-0.061035,-0.122070,-0.183105,-6.816022,-7.711190,-73.771215
11.917374,1.342795,0.490098,9.720038,0.122070,-0.122070,-0.122070,-4.480007,-8.172378,-73.311852
11.937435,1.349600,0.501391,9.692843,0.000000,-0.122070,0.061035,-4.713608,-8.864160,-71.244718
11.957552,1.333722,0.501391,9.785760,-0.183105,0.000000,0.061035,-5.414413,-10.017129,-72.852489
11.977530,1.381355,0.505908,9.769896,0.061035,0.122070,-0.122070,-7.750428,-5.405251,-72.393126
11.997309,1.356404,0.508166,9.783493,-0.061035,-0.122070,-0.122070,-7.750428,-9.094753,-74.230578
12.016411,1.360941,0.512684,9.788026,0.061035,0.122070,-0.183105,-6.115217,-9.325347,-74.000896
